GNG_Image,GNG_Condition,GNG_CorrectResp,thisN,thisTrialN,thisRepN,key_resp_Prac.keys,key_resp_Prac.corr,key_resp_Prac.rt,key_resp_Prac.duration,key_resp_blockStart.keys,key_resp_blockStart.rt,key_resp_blockStart.duration,key_resp_Main.keys,key_resp_Main.corr,key_resp_Main.rt,key_resp_Main.duration,pracTrials.thisRepN,pracTrials.thisTrialN,pracTrials.thisN,pracTrials.thisIndex,blocks.thisRepN,blocks.thisTrialN,blocks.thisN,blocks.thisIndex,mainTrials.thisRepN,mainTrials.thisTrialN,mainTrials.thisN,mainTrials.thisIndex,thisRow.t,notes,mainInstr.started,text_MainInstr.started,key_resp_MainInstr.started,mainInstr.stopped,key_resp_MainInstr.keys,key_resp_MainInstr.rt,key_resp_MainInstr.duration,pracInstr.started,text_PractInstr.started,key_resp_PractInstr.started,pracInstr.stopped,key_resp_PractInstr.keys,key_resp_PractInstr.rt,key_resp_PractInstr.duration,pracTrial.started,text_PreFixPrac.started,text_PreFixPrac.stopped,image_Prac.started,key_resp_Prac.started,image_Prac.stopped,text_PostFixPrac.started,text_PostFixPrac.stopped,key_resp_Prac.stopped,pracTrial.stopped,pracTrials.key_resp_Prac.keys,pracTrials.key_resp_Prac.corr,pracFeedback.started,text_Feedback.started,text_Feedback.stopped,pracFeedback.stopped,pracTrials.key_resp_Prac.rt,pracTrials.key_resp_Prac.duration,expInstruct.started,text_ExpInstr.started,key_resp_ExpInstr.started,expInstruct.stopped,key_resp_ExpInstr.keys,key_resp_ExpInstr.rt,key_resp_ExpInstr.duration,blockStart.started,text_blockStart1.started,text_blockStart2.started,text_blockStart3.started,key_resp_blockStart.started,blockStart.stopped,blocks.key_resp_blockStart.keys,blocks.key_resp_blockStart.rt,blocks.key_resp_blockStart.duration,Trial.started,text_PreFixMain.started,text_PreFixMain.stopped,image_Main.started,key_resp_Main.started,image_Main.stopped,text_PostFixMain.started,key_resp_Main.stopped,text_PostFixMain.stopped,Trial.stopped,mainTrials.key_resp_Main.keys,mainTrials.key_resp_Main.corr,mainTrials.key_resp_Main.rt,mainTrials.key_resp_Main.duration,blockEnd.started,text_blockEnd1.started,text_blockEnd2.started,text_blockEnd1.stopped,text_blockEnd2.stopped,blockEnd.stopped,participant,session,pracTrialRepeat,mainTrialRepeat,mainBlocks,date,expName,psychopyVersion,frameRate,expStart,
,,,,,,,,,,,,,,,,,,,,,,,,,,,,,,,0.0012424000015016645,0.003242899998440407,0.5052611999999499,0.6925448000038159,space,0.1699319999970612,None,,,,,,,,,,,,,,,,,,,,,,,,,,,,,,,,,,,,,,,,,,,,,,,,,,,,,,,,,,,,,,subj-1,sess-01,2,16,2,2025-02-04_22h50.54.324,GoNogo,2024.2.4,59.866402138107226,2025-02-04 22h51.00.986718 +0000,
,,,,,,,,,,,,,,,,,,,,,,,,,,,,,,,,,,,,,,0.6925843999997596,0.705168100001174,1.2053299999970477,2.0069659000000684,space,0.7990097000001697,None,,,,,,,,,,,,,,,,,,,,,,,,,,,,,,,,,,,,,,,,,,,,,,,,,,,,,,,subj-1,sess-01,2,16,2,2025-02-04_22h50.54.324,GoNogo,2024.2.4,59.866402138107226,2025-02-04 22h51.00.986718 +0000,
Stimuli/blue_circle_sm.jpg,NoGo,None,0,0,0,None,1,,,,,,,,,,0,0,0,1,,,,,,,,,2.0219112999984645,,,,,,,,,,,,,,,,2.017371900001308,2.0219112999984645,2.2219477999969968,2.2219477999969968,2.2219477999969968,2.5220756999988225,2.5220756999988225,3.22218260000227,3.22218260000227,3.206855299999006,None,1,3.2102131999999983,3.22218260000227,3.7223194999969564,3.706633599998895,,,,,,,,,,,,,,,,,,,,,,,,,,,,,,,,,,,,,,,subj-1,sess-01,2,16,2,2025-02-04_22h50.54.324,GoNogo,2024.2.4,59.866402138107226,2025-02-04 22h51.00.986718 +0000,
Stimuli/blue_circle_sm.jpg,NoGo,None,1,1,0,None,1,,,,,,,,,,0,1,1,2,,,,,,,,,3.7223194999969564,,,,,,,,,,,,,,,,3.7084015000000363,3.7223194999969564,3.9230106999966665,3.9230106999966665,3.9230106999966665,4.222323800000595,4.222323800000595,4.9225606999971205,4.9225606999971205,4.907339099998353,None,1,4.907447199999297,4.9225606999971205,5.422737400003825,5.406936999999743,,,,,,,,,,,,,,,,,,,,,,,,,,,,,,,,,,,,,,,subj-1,sess-01,2,16,2,2025-02-04_22h50.54.324,GoNogo,2024.2.4,59.866402138107226,2025-02-04 22h51.00.986718 +0000,
Stimuli/blue_circle_sm.jpg,NoGo,None,2,2,1,None,1,,,,,,,,,,1,2,2,2,,,,,,,,,5.422737400003825,,,,,,,,,,,,,,,,5.408714600001986,5.422737400003825,5.606279699997685,5.606279699997685,5.606279699997685,5.906231300003128,5.906231300003128,6.6064340000011725,6.6064340000011725,6.5909746999968775,None,1,6.591100600002392,6.6064340000011725,7.10626670000056,7.09092590000364,,,,,,,,,,,,,,,,,,,,,,,,,,,,,,,,,,,,,,,subj-1,sess-01,2,16,2,2025-02-04_22h50.54.324,GoNogo,2024.2.4,59.866402138107226,2025-02-04 22h51.00.986718 +0000,
Stimuli/blue_circle_sm.jpg,NoGo,None,3,3,1,None,1,,,,,,,,,,1,3,3,1,,,,,,,,,7.10626670000056,,,,,,,,,,,,,,,,7.093085799999244,7.10626670000056,7.3066258000035305,7.3066258000035305,7.3066258000035305,7.606601400002546,7.606601400002546,8.30669289999787,8.30669289999787,8.290969900001073,None,1,8.291067700003623,8.30669289999787,8.806863899997552,8.79139589999977,,,,,,,,,,,,,,,,,,,,,,,,,,,,,,,,,,,,,,,subj-1,sess-01,2,16,2,2025-02-04_22h50.54.324,GoNogo,2024.2.4,59.866402138107226,2025-02-04 22h51.00.986718 +0000,
Stimuli/yellow_circle_sm.jpg,Go,space,4,4,0,space,1,0.69248510000034,0.15912160000152653,,,,,,,,0,4,4,4,,,,,,,,,8.806863899997552,,,,,,,,,,,,,,,,8.793407800003479,8.806863899997552,9.0069164000015,9.0069164000015,9.0069164000015,9.307042200001888,9.307042200001888,10.006929399998626,10.006929399998626,9.99119570000039,space,1,9.99902270000166,10.006929399998626,10.507155100000091,10.491420099999232,0.69248510000034,0.15912160000152653,,,,,,,,,,,,,,,,,,,,,,,,,,,,,,,,,,,,,subj-1,sess-01,2,16,2,2025-02-04_22h50.54.324,GoNogo,2024.2.4,59.866402138107226,2025-02-04 22h51.00.986718 +0000,
Stimuli/blue_circle_sm.jpg,NoGo,None,5,5,0,None,1,,,,,,,,,,0,5,5,3,,,,,,,,,10.507155100000091,,,,,,,,,,,,,,,,10.493245099998603,10.507155100000091,10.707332600002701,10.707332600002701,10.707332600002701,11.007229399998323,11.007229399998323,11.707311500002106,11.707311500002106,11.691532500000903,None,1,11.69389599999704,11.707311500002106,12.2075782000029,12.191726899996866,,,,,,,,,,,,,,,,,,,,,,,,,,,,,,,,,,,,,,,subj-1,sess-01,2,16,2,2025-02-04_22h50.54.324,GoNogo,2024.2.4,59.866402138107226,2025-02-04 22h51.00.986718 +0000,
Stimuli/blue_circle_sm.jpg,NoGo,None,6,6,0,None,1,,,,,,,,,,0,6,6,0,,,,,,,,,12.2075782000029,,,,,,,,,,,,,,,,12.193759000001592,12.2075782000029,12.407632299997204,12.407632299997204,12.407632299997204,12.707705499997246,12.707705499997246,13.40775500000018,13.40775500000018,13.392250999997486,None,1,13.392343799998343,13.40775500000018,13.907901999999012,13.892166999998153,,,,,,,,,,,,,,,,,,,,,,,,,,,,,,,,,,,,,,,subj-1,sess-01,2,16,2,2025-02-04_22h50.54.324,GoNogo,2024.2.4,59.866402138107226,2025-02-04 22h51.00.986718 +0000,
Stimuli/blue_circle_sm.jpg,NoGo,None,7,7,1,None,1,,,,,,,,,,1,7,7,3,,,,,,,,,13.907901999999012,,,,,,,,,,,,,,,,13.894434599998931,13.907901999999012,14.108187300000282,14.108187300000282,14.108187300000282,14.407908300003328,14.407908300003328,15.108232899998256,15.108232899998256,15.092526100001123,None,1,15.092617399997835,15.108232899998256,15.608097299998917,15.592338599999493,,,,,,,,,,,,,,,,,,,,,,,,,,,,,,,,,,,,,,,subj-1,sess-01,2,16,2,2025-02-04_22h50.54.324,GoNogo,2024.2.4,59.866402138107226,2025-02-04 22h51.00.986718 +0000,
Stimuli/blue_circle_sm.jpg,NoGo,None,8,8,1,None,1,,,,,,,,,,1,8,8,0,,,,,,,,,15.608097299998917,,,,,,,,,,,,,,,,15.59406129999843,15.608097299998917,15.80841700000019,15.80841700000019,15.80841700000019,16.108277400002407,16.108277400002407,16.80839990000095,16.80839990000095,16.792280300003767,None,1,16.792352999997092,16.80839990000095,17.308451500000956,17.29266479999933,,,,,,,,,,,,,,,,,,,,,,,,,,,,,,,,,,,,,,,subj-1,sess-01,2,16,2,2025-02-04_22h50.54.324,GoNogo,2024.2.4,59.866402138107226,2025-02-04 22h51.00.986718 +0000,
Stimuli/yellow_circle_sm.jpg,Go,space,9,9,1,space,1,0.6064082000011695,0.16156129999581026,,,,,,,,1,9,9,4,,,,,,,,,17.308451500000956,,,,,,,,,,,,,,,,17.294274200001382,17.308451500000956,17.508650299998408,17.508650299998408,17.508650299998408,17.808625600002415,17.808625600002415,18.508684899999935,18.508684899999935,18.493246500001987,space,1,18.49736000000121,18.508684899999935,19.008801399999356,18.993221800003084,0.6064082000011695,0.16156129999581026,,,,,,,,,,,,,,,,,,,,,,,,,,,,,,,,,,,,,subj-1,sess-01,2,16,2,2025-02-04_22h50.54.324,GoNogo,2024.2.4,59.866402138107226,2025-02-04 22h51.00.986718 +0000,
,,,,,,,,,,,,,,,,,,,,,,,,,,,,,,,,,,,,,,,,,,,,,,,,,,,,,,,,,,,,,,,18.993379599996842,19.008801399999356,19.50913340000261,19.86092279999866,space,0.33504489999904763,None,,,,,,,,,,,,,,,,,,,,,,,,,,,,,,subj-1,sess-01,2,16,2,2025-02-04_22h50.54.324,GoNogo,2024.2.4,59.866402138107226,2025-02-04 22h51.00.986718 +0000,
Stimuli/blue_circle_sm.jpg,NoGo,None,0,0,0,,,,,space,0.992172300000675,None,None,1,,,,,,,0,0,0,0,0,0,0,2,20.89260330000252,,,,,,,,,,,,,,,,,,,,,,,,,,,,,,,,,,,,,,,,,19.863703299997724,19.87568530000135,19.87568530000135,19.87568530000135,19.87568530000135,20.87697389999812,space,0.992172300000675,None,20.88451720000012,20.89260330000252,21.076033099998313,21.076033099998313,21.076033099998313,21.392370399997162,21.392370399997162,22.076031800002966,22.0929232999988,22.077009100001305,None,1,,,,,,,,,subj-1,sess-01,2,16,2,2025-02-04_22h50.54.324,GoNogo,2024.2.4,59.866402138107226,2025-02-04 22h51.00.986718 +0000,
Stimuli/blue_circle_sm.jpg,NoGo,None,1,1,1,,,,,space,0.992172300000675,None,None,1,,,,,,,0,0,0,0,1,1,1,2,22.0929232999988,,,,,,,,,,,,,,,,,,,,,,,,,,,,,,,,,,,,,,,,,,,,,,,,,,22.078986799999257,22.0929232999988,22.2762201000005,22.2762201000005,22.2762201000005,22.57626639999944,22.57626639999944,23.276337199997215,23.276337199997215,23.26085310000053,None,1,,,,,,,,,subj-1,sess-01,2,16,2,2025-02-04_22h50.54.324,GoNogo,2024.2.4,59.866402138107226,2025-02-04 22h51.00.986718 +0000,
Stimuli/blue_circle_sm.jpg,NoGo,None,2,2,0,,,,,space,0.992172300000675,None,None,1,,,,,,,0,0,0,0,0,2,2,3,23.276337199997215,,,,,,,,,,,,,,,,,,,,,,,,,,,,,,,,,,,,,,,,,,,,,,,,,,23.263155100001313,23.276337199997215,23.47647750000033,23.47647750000033,23.47647750000033,23.776363999997557,23.776363999997557,24.476699899998493,24.476699899998493,24.460886100001517,None,1,,,,,,,,,subj-1,sess-01,2,16,2,2025-02-04_22h50.54.324,GoNogo,2024.2.4,59.866402138107226,2025-02-04 22h51.00.986718 +0000,
Stimuli/blue_circle_sm.jpg,NoGo,None,3,3,2,,,,,space,0.992172300000675,None,None,1,,,,,,,0,0,0,0,2,3,3,2,24.476699899998493,,,,,,,,,,,,,,,,,,,,,,,,,,,,,,,,,,,,,,,,,,,,,,,,,,24.463028099999065,24.476699899998493,24.67680030000338,24.67680030000338,24.67680030000338,24.97664249999798,24.97664249999798,25.676738699999987,25.676738699999987,25.660958100001153,None,1,,,,,,,,,subj-1,sess-01,2,16,2,2025-02-04_22h50.54.324,GoNogo,2024.2.4,59.866402138107226,2025-02-04 22h51.00.986718 +0000,
Stimuli/blue_circle_sm.jpg,NoGo,None,4,4,3,,,,,space,0.992172300000675,None,None,1,,,,,,,0,0,0,0,3,4,4,2,25.676738699999987,,,,,,,,,,,,,,,,,,,,,,,,,,,,,,,,,,,,,,,,,,,,,,,,,,25.662710399999924,25.676738699999987,25.87698079999973,25.87698079999973,25.87698079999973,26.176941899997473,26.176941899997473,26.877207700003055,26.877207700003055,26.86137459999736,None,1,,,,,,,,,subj-1,sess-01,2,16,2,2025-02-04_22h50.54.324,GoNogo,2024.2.4,59.866402138107226,2025-02-04 22h51.00.986718 +0000,
Stimuli/blue_circle_sm.jpg,NoGo,None,5,5,0,,,,,space,0.992172300000675,None,None,1,,,,,,,0,0,0,0,0,5,5,0,26.877207700003055,,,,,,,,,,,,,,,,,,,,,,,,,,,,,,,,,,,,,,,,,,,,,,,,,,26.86329139999725,26.877207700003055,27.077104099997086,27.077104099997086,27.077104099997086,27.377169400002458,27.377169400002458,28.077202300002682,28.077202300002682,28.061430000001565,None,1,,,,,,,,,subj-1,sess-01,2,16,2,2025-02-04_22h50.54.324,GoNogo,2024.2.4,59.866402138107226,2025-02-04 22h51.00.986718 +0000,
Stimuli/blue_circle_sm.jpg,NoGo,None,6,6,1,,,,,space,0.992172300000675,None,None,1,,,,,,,0,0,0,0,1,6,6,3,28.077202300002682,,,,,,,,,,,,,,,,,,,,,,,,,,,,,,,,,,,,,,,,,,,,,,,,,,28.06327500000043,28.077202300002682,28.277394099997764,28.277394099997764,28.277394099997764,28.577404099996784,28.577404099996784,29.277532100000826,29.277532100000826,29.262052500002028,None,1,,,,,,,,,subj-1,sess-01,2,16,2,2025-02-04_22h50.54.324,GoNogo,2024.2.4,59.866402138107226,2025-02-04 22h51.00.986718 +0000,
Stimuli/blue_circle_sm.jpg,NoGo,None,7,7,1,,,,,space,0.992172300000675,None,None,1,,,,,,,0,0,0,0,1,7,7,0,29.277532100000826,,,,,,,,,,,,,,,,,,,,,,,,,,,,,,,,,,,,,,,,,,,,,,,,,,29.264732000003278,29.277532100000826,29.477569399998174,29.477569399998174,29.477569399998174,29.777719799996703,29.777719799996703,30.477827399998205,30.477827399998205,30.46206009999878,None,1,,,,,,,,,subj-1,sess-01,2,16,2,2025-02-04_22h50.54.324,GoNogo,2024.2.4,59.866402138107226,2025-02-04 22h51.00.986718 +0000,
Stimuli/blue_circle_sm.jpg,NoGo,None,8,8,2,,,,,space,0.992172300000675,None,None,1,,,,,,,0,0,0,0,2,8,8,0,30.477827399998205,,,,,,,,,,,,,,,,,,,,,,,,,,,,,,,,,,,,,,,,,,,,,,,,,,30.464266199996928,30.477827399998205,30.6779538999981,30.6779538999981,30.6779538999981,30.97783299999719,30.97783299999719,31.678037799996673,31.678037799996673,31.662298199997167,None,1,,,,,,,,,subj-1,sess-01,2,16,2,2025-02-04_22h50.54.324,GoNogo,2024.2.4,59.866402138107226,2025-02-04 22h51.00.986718 +0000,
Stimuli/blue_circle_sm.jpg,NoGo,None,9,9,4,,,,,space,0.992172300000675,None,None,1,,,,,,,0,0,0,0,4,9,9,2,31.678037799996673,,,,,,,,,,,,,,,,,,,,,,,,,,,,,,,,,,,,,,,,,,,,,,,,,,31.66414220000297,31.678037799996673,31.878205300003174,31.878205300003174,31.878205300003174,32.17820799999754,32.17820799999754,32.87819640000089,32.87819640000089,32.86270610000065,None,1,,,,,,,,,subj-1,sess-01,2,16,2,2025-02-04_22h50.54.324,GoNogo,2024.2.4,59.866402138107226,2025-02-04 22h51.00.986718 +0000,
Stimuli/blue_circle_sm.jpg,NoGo,None,10,10,3,,,,,space,0.992172300000675,None,None,1,,,,,,,0,0,0,0,3,10,10,0,32.87819640000089,,,,,,,,,,,,,,,,,,,,,,,,,,,,,,,,,,,,,,,,,,,,,,,,,,32.86501339999813,32.87819640000089,33.078433299997414,33.078433299997414,33.078433299997414,33.37843740000244,33.37843740000244,34.07861280000361,34.07861280000361,34.06283780000376,None,1,,,,,,,,,subj-1,sess-01,2,16,2,2025-02-04_22h50.54.324,GoNogo,2024.2.4,59.866402138107226,2025-02-04 22h51.00.986718 +0000,
Stimuli/blue_circle_sm.jpg,NoGo,None,11,11,4,,,,,space,0.992172300000675,None,None,1,,,,,,,0,0,0,0,4,11,11,0,34.07861280000361,,,,,,,,,,,,,,,,,,,,,,,,,,,,,,,,,,,,,,,,,,,,,,,,,,34.06507520000014,34.07861280000361,34.27873589999945,34.27873589999945,34.27873589999945,34.5786580999993,34.5786580999993,35.27890920000209,35.27890920000209,35.26293430000078,None,1,,,,,,,,,subj-1,sess-01,2,16,2,2025-02-04_22h50.54.324,GoNogo,2024.2.4,59.866402138107226,2025-02-04 22h51.00.986718 +0000,
Stimuli/blue_circle_sm.jpg,NoGo,None,12,12,0,,,,,space,0.992172300000675,None,None,1,,,,,,,0,0,0,0,0,12,12,1,35.27890920000209,,,,,,,,,,,,,,,,,,,,,,,,,,,,,,,,,,,,,,,,,,,,,,,,,,35.2647844000021,35.27890920000209,35.47868849999941,35.47868849999941,35.47868849999941,35.7788434000031,35.7788434000031,36.478815399997984,36.478815399997984,36.46317770000314,None,1,,,,,,,,,subj-1,sess-01,2,16,2,2025-02-04_22h50.54.324,GoNogo,2024.2.4,59.866402138107226,2025-02-04 22h51.00.986718 +0000,
Stimuli/blue_circle_sm.jpg,NoGo,None,13,13,1,,,,,space,0.992172300000675,None,None,1,,,,,,,0,0,0,0,1,13,13,1,36.478815399997984,,,,,,,,,,,,,,,,,,,,,,,,,,,,,,,,,,,,,,,,,,,,,,,,,,36.465167200003634,36.478815399997984,36.67923229999724,36.67923229999724,36.67923229999724,36.97914689999743,36.97914689999743,37.679375400002755,37.679375400002755,37.66341459999967,None,1,,,,,,,,,subj-1,sess-01,2,16,2,2025-02-04_22h50.54.324,GoNogo,2024.2.4,59.866402138107226,2025-02-04 22h51.00.986718 +0000,
Stimuli/blue_circle_sm.jpg,NoGo,None,14,14,2,,,,,space,0.992172300000675,None,None,1,,,,,,,0,0,0,0,2,14,14,3,37.679375400002755,,,,,,,,,,,,,,,,,,,,,,,,,,,,,,,,,,,,,,,,,,,,,,,,,,37.66547400000127,37.679375400002755,37.87940789999993,37.87940789999993,37.87940789999993,38.17937510000047,38.17937510000047,38.87951759999851,38.87951759999851,38.86387459999969,None,1,,,,,,,,,subj-1,sess-01,2,16,2,2025-02-04_22h50.54.324,GoNogo,2024.2.4,59.866402138107226,2025-02-04 22h51.00.986718 +0000,
Stimuli/blue_circle_sm.jpg,NoGo,None,15,15,5,,,,,space,0.992172300000675,None,None,1,,,,,,,0,0,0,0,5,15,15,0,38.87951759999851,,,,,,,,,,,,,,,,,,,,,,,,,,,,,,,,,,,,,,,,,,,,,,,,,,38.86601270000392,38.87951759999851,39.07950720000372,39.07950720000372,39.07950720000372,39.379510999999184,39.379510999999184,40.07975520000036,40.07975520000036,40.064100000003236,None,1,,,,,,,,,subj-1,sess-01,2,16,2,2025-02-04_22h50.54.324,GoNogo,2024.2.4,59.866402138107226,2025-02-04 22h51.00.986718 +0000,
Stimuli/blue_circle_sm.jpg,NoGo,None,16,16,3,,,,,space,0.992172300000675,None,None,1,,,,,,,0,0,0,0,3,16,16,3,40.07975520000036,,,,,,,,,,,,,,,,,,,,,,,,,,,,,,,,,,,,,,,,,,,,,,,,,,40.06618989999697,40.07975520000036,40.27996420000272,40.27996420000272,40.27996420000272,40.57985069999995,40.57985069999995,41.27994079999917,41.27994079999917,41.26400049999938,None,1,,,,,,,,,subj-1,sess-01,2,16,2,2025-02-04_22h50.54.324,GoNogo,2024.2.4,59.866402138107226,2025-02-04 22h51.00.986718 +0000,
Stimuli/yellow_circle_sm.jpg,Go,space,17,17,0,,,,,space,0.992172300000675,None,space,1,0.4905469000004814,0.1772101999958977,,,,,0,0,0,0,0,17,17,4,41.27994079999917,,,,,,,,,,,,,,,,,,,,,,,,,,,,,,,,,,,,,,,,,,,,,,,,,,41.26573510000162,41.27994079999917,41.47998340000049,41.47998340000049,41.47998340000049,41.77997969999706,41.77997969999706,42.48012849999941,42.48012849999941,42.464366000000155,space,1,0.4905469000004814,0.1772101999958977,,,,,,,subj-1,sess-01,2,16,2,2025-02-04_22h50.54.324,GoNogo,2024.2.4,59.866402138107226,2025-02-04 22h51.00.986718 +0000,
Stimuli/blue_circle_sm.jpg,NoGo,None,18,18,2,,,,,space,0.992172300000675,None,None,1,,,,,,,0,0,0,0,2,18,18,1,42.48012849999941,,,,,,,,,,,,,,,,,,,,,,,,,,,,,,,,,,,,,,,,,,,,,,,,,,42.46633000000293,42.48012849999941,42.680250700002944,42.680250700002944,42.680250700002944,42.98023359999934,42.98023359999934,43.680464400000346,43.680464400000346,43.66493579999951,None,1,,,,,,,,,subj-1,sess-01,2,16,2,2025-02-04_22h50.54.324,GoNogo,2024.2.4,59.866402138107226,2025-02-04 22h51.00.986718 +0000,
Stimuli/blue_circle_sm.jpg,NoGo,None,19,19,3,,,,,space,0.992172300000675,None,None,1,,,,,,,0,0,0,0,3,19,19,1,43.680464400000346,,,,,,,,,,,,,,,,,,,,,,,,,,,,,,,,,,,,,,,,,,,,,,,,,,43.66669740000361,43.680464400000346,43.880396000000474,43.880396000000474,43.880396000000474,44.18039220000355,44.18039220000355,44.88060519999999,44.88060519999999,44.86502990000008,None,1,,,,,,,,,subj-1,sess-01,2,16,2,2025-02-04_22h50.54.324,GoNogo,2024.2.4,59.866402138107226,2025-02-04 22h51.00.986718 +0000,
Stimuli/blue_circle_sm.jpg,NoGo,None,20,20,4,,,,,space,0.992172300000675,None,None,1,,,,,,,0,0,0,0,4,20,20,3,44.88060519999999,,,,,,,,,,,,,,,,,,,,,,,,,,,,,,,,,,,,,,,,,,,,,,,,,,44.867074399997364,44.88060519999999,45.080667100002756,45.080667100002756,45.080667100002756,45.38084430000163,45.38084430000163,46.0808926000027,46.0808926000027,46.065124699998705,None,1,,,,,,,,,subj-1,sess-01,2,16,2,2025-02-04_22h50.54.324,GoNogo,2024.2.4,59.866402138107226,2025-02-04 22h51.00.986718 +0000,
Stimuli/blue_circle_sm.jpg,NoGo,None,21,21,5,,,,,space,0.992172300000675,None,None,1,,,,,,,0,0,0,0,5,21,21,2,46.0808926000027,,,,,,,,,,,,,,,,,,,,,,,,,,,,,,,,,,,,,,,,,,,,,,,,,,46.06720089999726,46.0808926000027,46.28110520000337,46.28110520000337,46.28110520000337,46.581150400001206,46.581150400001206,47.28113250000024,47.28113250000024,47.26539249999769,None,1,,,,,,,,,subj-1,sess-01,2,16,2,2025-02-04_22h50.54.324,GoNogo,2024.2.4,59.866402138107226,2025-02-04 22h51.00.986718 +0000,
Stimuli/yellow_circle_sm.jpg,Go,space,22,22,1,,,,,space,0.992172300000675,None,space,1,0.41018500000063796,0.1591206999946735,,,,,0,0,0,0,1,22,22,4,47.28113250000024,,,,,,,,,,,,,,,,,,,,,,,,,,,,,,,,,,,,,,,,,,,,,,,,,,47.267352100003336,47.28113250000024,47.48117340000317,47.48117340000317,47.48117340000317,47.78115190000244,47.78115190000244,48.48144719999982,48.48144719999982,48.46562370000174,space,1,0.41018500000063796,0.1591206999946735,,,,,,,subj-1,sess-01,2,16,2,2025-02-04_22h50.54.324,GoNogo,2024.2.4,59.866402138107226,2025-02-04 22h51.00.986718 +0000,
Stimuli/yellow_circle_sm.jpg,Go,space,23,23,2,,,,,space,0.992172300000675,None,space,1,0.4744508000003407,0.14352559999679215,,,,,0,0,0,0,2,23,23,4,48.48144719999982,,,,,,,,,,,,,,,,,,,,,,,,,,,,,,,,,,,,,,,,,,,,,,,,,,48.46777060000022,48.48144719999982,48.681342199997744,48.681342199997744,48.681342199997744,48.98160199999984,48.98160199999984,49.68202320000273,49.68202320000273,49.66603259999829,space,1,0.4744508000003407,0.14352559999679215,,,,,,,subj-1,sess-01,2,16,2,2025-02-04_22h50.54.324,GoNogo,2024.2.4,59.866402138107226,2025-02-04 22h51.00.986718 +0000,
Stimuli/blue_circle_sm.jpg,NoGo,None,24,24,6,,,,,space,0.992172300000675,None,None,1,,,,,,,0,0,0,0,6,24,24,0,49.68202320000273,,,,,,,,,,,,,,,,,,,,,,,,,,,,,,,,,,,,,,,,,,,,,,,,,,49.668566599997575,49.68202320000273,49.881875500002934,49.881875500002934,49.881875500002934,50.18178749999788,50.18178749999788,50.88187520000065,50.88187520000065,50.866241399999126,None,1,,,,,,,,,subj-1,sess-01,2,16,2,2025-02-04_22h50.54.324,GoNogo,2024.2.4,59.866402138107226,2025-02-04 22h51.00.986718 +0000,
Stimuli/blue_circle_sm.jpg,NoGo,None,25,25,5,,,,,space,0.992172300000675,None,None,1,,,,,,,0,0,0,0,5,25,25,3,50.88187520000065,,,,,,,,,,,,,,,,,,,,,,,,,,,,,,,,,,,,,,,,,,,,,,,,,,50.86825400000089,50.88187520000065,51.08200409999699,51.08200409999699,51.08200409999699,51.38205549999839,51.38205549999839,52.08225610000227,52.08225610000227,52.066003300002194,None,1,,,,,,,,,subj-1,sess-01,2,16,2,2025-02-04_22h50.54.324,GoNogo,2024.2.4,59.866402138107226,2025-02-04 22h51.00.986718 +0000,
Stimuli/blue_circle_sm.jpg,NoGo,None,26,26,6,,,,,space,0.992172300000675,None,None,1,,,,,,,0,0,0,0,6,26,26,2,52.08225610000227,,,,,,,,,,,,,,,,,,,,,,,,,,,,,,,,,,,,,,,,,,,,,,,,,,52.067353600003116,52.08225610000227,52.28216850000172,52.28216850000172,52.28216850000172,52.58226460000151,52.58226460000151,53.28236289999768,53.28236289999768,53.26682620000065,None,1,,,,,,,,,subj-1,sess-01,2,16,2,2025-02-04_22h50.54.324,GoNogo,2024.2.4,59.866402138107226,2025-02-04 22h51.00.986718 +0000,
Stimuli/yellow_circle_sm.jpg,Go,space,27,27,3,,,,,space,0.992172300000675,None,space,1,0.3768649999983609,0.1279928000003565,,,,,0,0,0,0,3,27,27,4,53.28236289999768,,,,,,,,,,,,,,,,,,,,,,,,,,,,,,,,,,,,,,,,,,,,,,,,,,53.26856530000077,53.28236289999768,53.482411500001035,53.482411500001035,53.482411500001035,53.78258349999669,53.78258349999669,54.482522899998,54.482522899998,54.46693119999691,space,1,0.3768649999983609,0.1279928000003565,,,,,,,subj-1,sess-01,2,16,2,2025-02-04_22h50.54.324,GoNogo,2024.2.4,59.866402138107226,2025-02-04 22h51.00.986718 +0000,
Stimuli/blue_circle_sm.jpg,NoGo,None,28,28,6,,,,,space,0.992172300000675,None,None,1,,,,,,,0,0,0,0,6,28,28,3,54.482522899998,,,,,,,,,,,,,,,,,,,,,,,,,,,,,,,,,,,,,,,,,,,,,,,,,,54.46895400000358,54.482522899998,54.68283810000139,54.68283810000139,54.68283810000139,54.982836600000155,54.982836600000155,55.68285119999928,55.68285119999928,55.6674015000026,None,1,,,,,,,,,subj-1,sess-01,2,16,2,2025-02-04_22h50.54.324,GoNogo,2024.2.4,59.866402138107226,2025-02-04 22h51.00.986718 +0000,
Stimuli/blue_circle_sm.jpg,NoGo,None,29,29,7,,,,,space,0.992172300000675,None,None,1,,,,,,,0,0,0,0,7,29,29,2,55.68285119999928,,,,,,,,,,,,,,,,,,,,,,,,,,,,,,,,,,,,,,,,,,,,,,,,,,55.669703599996865,55.68285119999928,55.883048299998336,55.883048299998336,55.883048299998336,56.18277349999698,56.18277349999698,56.88311380000232,56.88311380000232,56.86734489999799,None,1,,,,,,,,,subj-1,sess-01,2,16,2,2025-02-04_22h50.54.324,GoNogo,2024.2.4,59.866402138107226,2025-02-04 22h51.00.986718 +0000,
Stimuli/blue_circle_sm.jpg,NoGo,None,30,30,4,,,,,space,0.992172300000675,None,None,1,,,,,,,0,0,0,0,4,30,30,1,56.88311380000232,,,,,,,,,,,,,,,,,,,,,,,,,,,,,,,,,,,,,,,,,,,,,,,,,,56.86945669999841,56.88311380000232,57.08311369999865,57.08311369999865,57.08311369999865,57.383290300000226,57.383290300000226,58.083229399999254,58.083229399999254,58.067491300003894,None,1,,,,,,,,,subj-1,sess-01,2,16,2,2025-02-04_22h50.54.324,GoNogo,2024.2.4,59.866402138107226,2025-02-04 22h51.00.986718 +0000,
Stimuli/blue_circle_sm.jpg,NoGo,None,31,31,7,,,,,space,0.992172300000675,None,None,1,,,,,,,0,0,0,0,7,31,31,3,58.083229399999254,,,,,,,,,,,,,,,,,,,,,,,,,,,,,,,,,,,,,,,,,,,,,,,,,,58.06938909999735,58.083229399999254,58.28336030000355,58.28336030000355,58.28336030000355,58.583349100001215,58.583349100001215,59.28361389999918,59.28361389999918,59.267753100000846,None,1,,,,,,,,,subj-1,sess-01,2,16,2,2025-02-04_22h50.54.324,GoNogo,2024.2.4,59.866402138107226,2025-02-04 22h51.00.986718 +0000,
Stimuli/yellow_circle_sm.jpg,Go,space,32,32,4,,,,,space,0.992172300000675,None,space,1,0.35870969999814406,0.16051339999830816,,,,,0,0,0,0,4,32,32,4,59.28361389999918,,,,,,,,,,,,,,,,,,,,,,,,,,,,,,,,,,,,,,,,,,,,,,,,,,59.26970060000167,59.28361389999918,59.48367359999975,59.48367359999975,59.48367359999975,59.78373190000275,59.78373190000275,60.483884000001126,60.483884000001126,60.46828500000265,space,1,0.35870969999814406,0.16051339999830816,,,,,,,subj-1,sess-01,2,16,2,2025-02-04_22h50.54.324,GoNogo,2024.2.4,59.866402138107226,2025-02-04 22h51.00.986718 +0000,
Stimuli/blue_circle_sm.jpg,NoGo,None,33,33,5,,,,,space,0.992172300000675,None,None,1,,,,,,,0,0,0,0,5,33,33,1,60.483884000001126,,,,,,,,,,,,,,,,,,,,,,,,,,,,,,,,,,,,,,,,,,,,,,,,,,60.47042240000155,60.483884000001126,60.68394899999839,60.68394899999839,60.68394899999839,60.983899500002735,60.983899500002735,61.68413600000349,61.68413600000349,61.66821930000151,None,1,,,,,,,,,subj-1,sess-01,2,16,2,2025-02-04_22h50.54.324,GoNogo,2024.2.4,59.866402138107226,2025-02-04 22h51.00.986718 +0000,
Stimuli/blue_circle_sm.jpg,NoGo,None,34,34,8,,,,,space,0.992172300000675,None,None,1,,,,,,,0,0,0,0,8,34,34,2,61.68413600000349,,,,,,,,,,,,,,,,,,,,,,,,,,,,,,,,,,,,,,,,,,,,,,,,,,61.67013620000216,61.68413600000349,61.88405310000235,61.88405310000235,61.88405310000235,62.184165999999095,62.184165999999095,62.88429780000297,62.88429780000297,62.8686549999984,None,1,,,,,,,,,subj-1,sess-01,2,16,2,2025-02-04_22h50.54.324,GoNogo,2024.2.4,59.866402138107226,2025-02-04 22h51.00.986718 +0000,
Stimuli/blue_circle_sm.jpg,NoGo,None,35,35,9,,,,,space,0.992172300000675,None,None,1,,,,,,,0,0,0,0,9,35,35,2,62.88429780000297,,,,,,,,,,,,,,,,,,,,,,,,,,,,,,,,,,,,,,,,,,,,,,,,,,62.87065689999872,62.88429780000297,63.0843898000021,63.0843898000021,63.0843898000021,63.38458879999962,63.38458879999962,64.08468729999731,64.08468729999731,64.06879599999957,None,1,,,,,,,,,subj-1,sess-01,2,16,2,2025-02-04_22h50.54.324,GoNogo,2024.2.4,59.866402138107226,2025-02-04 22h51.00.986718 +0000,
Stimuli/yellow_circle_sm.jpg,Go,space,36,36,5,,,,,space,0.992172300000675,None,space,1,0.4383063999994192,0.14472020000539487,,,,,0,0,0,0,5,36,36,4,64.08468729999731,,,,,,,,,,,,,,,,,,,,,,,,,,,,,,,,,,,,,,,,,,,,,,,,,,64.07079079999676,64.08468729999731,64.28457360000175,64.28457360000175,64.28457360000175,64.58463270000357,64.58463270000357,65.28476409999712,65.28476409999712,65.26897340000141,space,1,0.4383063999994192,0.14472020000539487,,,,,,,subj-1,sess-01,2,16,2,2025-02-04_22h50.54.324,GoNogo,2024.2.4,59.866402138107226,2025-02-04 22h51.00.986718 +0000,
Stimuli/blue_circle_sm.jpg,NoGo,None,37,37,8,,,,,space,0.992172300000675,None,None,1,,,,,,,0,0,0,0,8,37,37,3,65.28476409999712,,,,,,,,,,,,,,,,,,,,,,,,,,,,,,,,,,,,,,,,,,,,,,,,,,65.2706435,65.28476409999712,65.48487040000327,65.48487040000327,65.48487040000327,65.7849331000034,65.7849331000034,66.48528040000383,66.48528040000383,66.46958679999807,None,1,,,,,,,,,subj-1,sess-01,2,16,2,2025-02-04_22h50.54.324,GoNogo,2024.2.4,59.866402138107226,2025-02-04 22h51.00.986718 +0000,
Stimuli/blue_circle_sm.jpg,NoGo,None,38,38,6,,,,,space,0.992172300000675,None,None,1,,,,,,,0,0,0,0,6,38,38,1,66.48528040000383,,,,,,,,,,,,,,,,,,,,,,,,,,,,,,,,,,,,,,,,,,,,,,,,,,66.47194630000013,66.48528040000383,66.68515789999947,66.68515789999947,66.68515789999947,66.98520789999748,66.98520789999748,67.68498340000224,67.68498340000224,67.66931199999817,None,1,,,,,,,,,subj-1,sess-01,2,16,2,2025-02-04_22h50.54.324,GoNogo,2024.2.4,59.866402138107226,2025-02-04 22h51.00.986718 +0000,
Stimuli/blue_circle_sm.jpg,NoGo,None,39,39,9,,,,,space,0.992172300000675,None,None,1,,,,,,,0,0,0,0,9,39,39,3,67.68498340000224,,,,,,,,,,,,,,,,,,,,,,,,,,,,,,,,,,,,,,,,,,,,,,,,,,67.67102480000176,67.68498340000224,67.88548170000286,67.88548170000286,67.88548170000286,68.18552030000137,68.18552030000137,68.88560670000152,68.88560670000152,68.87022859999706,None,1,,,,,,,,,subj-1,sess-01,2,16,2,2025-02-04_22h50.54.324,GoNogo,2024.2.4,59.866402138107226,2025-02-04 22h51.00.986718 +0000,
Stimuli/blue_circle_sm.jpg,NoGo,None,40,40,7,,,,,space,0.992172300000675,None,None,1,,,,,,,0,0,0,0,7,40,40,0,68.88560670000152,,,,,,,,,,,,,,,,,,,,,,,,,,,,,,,,,,,,,,,,,,,,,,,,,,68.8724951999975,68.88560670000152,69.08571490000031,69.08571490000031,69.08571490000031,69.38572949999798,69.38572949999798,70.0858447999999,70.0858447999999,70.06979609999689,None,1,,,,,,,,,subj-1,sess-01,2,16,2,2025-02-04_22h50.54.324,GoNogo,2024.2.4,59.866402138107226,2025-02-04 22h51.00.986718 +0000,
Stimuli/blue_circle_sm.jpg,NoGo,None,41,41,8,,,,,space,0.992172300000675,None,None,1,,,,,,,0,0,0,0,8,41,41,0,70.0858447999999,,,,,,,,,,,,,,,,,,,,,,,,,,,,,,,,,,,,,,,,,,,,,,,,,,70.07100050000008,70.0858447999999,70.28591289999895,70.28591289999895,70.28591289999895,70.58592369999678,70.58592369999678,71.28588619999937,71.28588619999937,71.27069029999984,None,1,,,,,,,,,subj-1,sess-01,2,16,2,2025-02-04_22h50.54.324,GoNogo,2024.2.4,59.866402138107226,2025-02-04 22h51.00.986718 +0000,
Stimuli/blue_circle_sm.jpg,NoGo,None,42,42,9,,,,,space,0.992172300000675,None,None,1,,,,,,,0,0,0,0,9,42,42,0,71.28588619999937,,,,,,,,,,,,,,,,,,,,,,,,,,,,,,,,,,,,,,,,,,,,,,,,,,71.27289909999672,71.28588619999937,71.48671399999876,71.48671399999876,71.48671399999876,71.78629589999764,71.78629589999764,72.48629800000344,72.48629800000344,72.47063380000327,None,1,,,,,,,,,subj-1,sess-01,2,16,2,2025-02-04_22h50.54.324,GoNogo,2024.2.4,59.866402138107226,2025-02-04 22h51.00.986718 +0000,
Stimuli/blue_circle_sm.jpg,NoGo,None,43,43,10,,,,,space,0.992172300000675,None,None,1,,,,,,,0,0,0,0,10,43,43,3,72.48629800000344,,,,,,,,,,,,,,,,,,,,,,,,,,,,,,,,,,,,,,,,,,,,,,,,,,72.47277680000116,72.48629800000344,72.68643609999708,72.68643609999708,72.68643609999708,72.98631690000184,72.98631690000184,73.68658020000294,73.68658020000294,73.6711271000022,None,1,,,,,,,,,subj-1,sess-01,2,16,2,2025-02-04_22h50.54.324,GoNogo,2024.2.4,59.866402138107226,2025-02-04 22h51.00.986718 +0000,
Stimuli/yellow_circle_sm.jpg,Go,space,44,44,6,,,,,space,0.992172300000675,None,space,1,0.3571520999976201,0.14311290000478039,,,,,0,0,0,0,6,44,44,4,73.68658020000294,,,,,,,,,,,,,,,,,,,,,,,,,,,,,,,,,,,,,,,,,,,,,,,,,,73.67328329999873,73.68658020000294,73.88661310000316,73.88661310000316,73.88661310000316,74.18677430000389,74.18677430000389,74.88669220000156,74.88669220000156,74.87069170000177,space,1,0.3571520999976201,0.14311290000478039,,,,,,,subj-1,sess-01,2,16,2,2025-02-04_22h50.54.324,GoNogo,2024.2.4,59.866402138107226,2025-02-04 22h51.00.986718 +0000,
Stimuli/yellow_circle_sm.jpg,Go,space,45,45,7,,,,,space,0.992172300000675,None,space,1,0.5488136999993003,0.12781769999855896,,,,,0,0,0,0,7,45,45,4,74.88669220000156,,,,,,,,,,,,,,,,,,,,,,,,,,,,,,,,,,,,,,,,,,,,,,,,,,74.8721308000022,74.88669220000156,75.08683240000391,75.08683240000391,75.08683240000391,75.38680469999963,75.38680469999963,76.08705409999675,76.08705409999675,76.07132139999885,space,1,0.5488136999993003,0.12781769999855896,,,,,,,subj-1,sess-01,2,16,2,2025-02-04_22h50.54.324,GoNogo,2024.2.4,59.866402138107226,2025-02-04 22h51.00.986718 +0000,
Stimuli/blue_circle_sm.jpg,NoGo,None,46,46,11,,,,,space,0.992172300000675,None,None,1,,,,,,,0,0,0,0,11,46,46,3,76.08705409999675,,,,,,,,,,,,,,,,,,,,,,,,,,,,,,,,,,,,,,,,,,,,,,,,,,76.07368929999939,76.08705409999675,76.28709569999774,76.28709569999774,76.28709569999774,76.58724529999745,76.58724529999745,77.28818090000277,77.28818090000277,77.27294059999986,None,1,,,,,,,,,subj-1,sess-01,2,16,2,2025-02-04_22h50.54.324,GoNogo,2024.2.4,59.866402138107226,2025-02-04 22h51.00.986718 +0000,
Stimuli/blue_circle_sm.jpg,NoGo,None,47,47,7,,,,,space,0.992172300000675,None,None,1,,,,,,,0,0,0,0,7,47,47,1,77.28818090000277,,,,,,,,,,,,,,,,,,,,,,,,,,,,,,,,,,,,,,,,,,,,,,,,,,77.27405569999974,77.28818090000277,77.48710869999923,77.48710869999923,77.48710869999923,77.78705810000247,77.78705810000247,78.48736040000222,78.48736040000222,78.4712354000003,None,1,,,,,,,,,subj-1,sess-01,2,16,2,2025-02-04_22h50.54.324,GoNogo,2024.2.4,59.866402138107226,2025-02-04 22h51.00.986718 +0000,
Stimuli/blue_circle_sm.jpg,NoGo,None,48,48,8,,,,,space,0.992172300000675,None,None,1,,,,,,,0,0,0,0,8,48,48,1,78.48736040000222,,,,,,,,,,,,,,,,,,,,,,,,,,,,,,,,,,,,,,,,,,,,,,,,,,78.47232570000051,78.48736040000222,78.68751070000144,78.68751070000144,78.68751070000144,78.98761630000081,78.98761630000081,79.68763429999672,79.68763429999672,79.67162380000082,None,1,,,,,,,,,subj-1,sess-01,2,16,2,2025-02-04_22h50.54.324,GoNogo,2024.2.4,59.866402138107226,2025-02-04 22h51.00.986718 +0000,
Stimuli/blue_circle_sm.jpg,NoGo,None,49,49,9,,,,,space,0.992172300000675,None,None,1,,,,,,,0,0,0,0,9,49,49,1,79.68763429999672,,,,,,,,,,,,,,,,,,,,,,,,,,,,,,,,,,,,,,,,,,,,,,,,,,79.67268540000077,79.68763429999672,79.88771170000109,79.88771170000109,79.88771170000109,80.18781160000071,80.18781160000071,80.88791369999672,80.88791369999672,80.87181309999869,None,1,,,,,,,,,subj-1,sess-01,2,16,2,2025-02-04_22h50.54.324,GoNogo,2024.2.4,59.866402138107226,2025-02-04 22h51.00.986718 +0000,
Stimuli/yellow_circle_sm.jpg,Go,space,50,50,8,,,,,space,0.992172300000675,None,space,1,0.37117209999996703,0.16009549999580486,,,,,0,0,0,0,8,50,50,4,80.88791369999672,,,,,,,,,,,,,,,,,,,,,,,,,,,,,,,,,,,,,,,,,,,,,,,,,,80.87291459999688,80.88791369999672,81.08800419999898,81.08800419999898,81.08800419999898,81.38796059999731,81.38796059999731,82.08828070000163,82.08828070000163,82.07188670000323,space,1,0.37117209999996703,0.16009549999580486,,,,,,,subj-1,sess-01,2,16,2,2025-02-04_22h50.54.324,GoNogo,2024.2.4,59.866402138107226,2025-02-04 22h51.00.986718 +0000,
Stimuli/blue_circle_sm.jpg,NoGo,None,51,51,10,,,,,space,0.992172300000675,None,None,1,,,,,,,0,0,0,0,10,51,51,0,82.08828070000163,,,,,,,,,,,,,,,,,,,,,,,,,,,,,,,,,,,,,,,,,,,,,,,,,,82.07332770000357,82.08828070000163,82.28806590000022,82.28806590000022,82.28806590000022,82.58822740000323,82.58822740000323,83.2883742999984,83.2883742999984,83.27228050000122,None,1,,,,,,,,,subj-1,sess-01,2,16,2,2025-02-04_22h50.54.324,GoNogo,2024.2.4,59.866402138107226,2025-02-04 22h51.00.986718 +0000,
Stimuli/yellow_circle_sm.jpg,Go,space,52,52,9,,,,,space,0.992172300000675,None,space,1,0.48210570000082953,0.1439463999995496,,,,,0,0,0,0,9,52,52,4,83.2883742999984,,,,,,,,,,,,,,,,,,,,,,,,,,,,,,,,,,,,,,,,,,,,,,,,,,83.27331640000193,83.2883742999984,83.488322600002,83.488322600002,83.488322600002,83.78848450000078,83.78848450000078,84.48853979999694,84.48853979999694,84.47266120000131,space,1,0.48210570000082953,0.1439463999995496,,,,,,,subj-1,sess-01,2,16,2,2025-02-04_22h50.54.324,GoNogo,2024.2.4,59.866402138107226,2025-02-04 22h51.00.986718 +0000,
Stimuli/blue_circle_sm.jpg,NoGo,None,53,53,11,,,,,space,0.992172300000675,None,None,1,,,,,,,0,0,0,0,11,53,53,0,84.48853979999694,,,,,,,,,,,,,,,,,,,,,,,,,,,,,,,,,,,,,,,,,,,,,,,,,,84.4738376000023,84.48853979999694,84.68876089999685,84.68876089999685,84.68876089999685,84.9887344000017,84.9887344000017,85.68878640000185,85.68878640000185,85.67333789999975,None,1,,,,,,,,,subj-1,sess-01,2,16,2,2025-02-04_22h50.54.324,GoNogo,2024.2.4,59.866402138107226,2025-02-04 22h51.00.986718 +0000,
Stimuli/blue_circle_sm.jpg,NoGo,None,54,54,10,,,,,space,0.992172300000675,None,None,1,,,,,,,0,0,0,0,10,54,54,1,85.68878640000185,,,,,,,,,,,,,,,,,,,,,,,,,,,,,,,,,,,,,,,,,,,,,,,,,,85.67524669999693,85.68878640000185,85.88885850000224,85.88885850000224,85.88885850000224,86.18918259999919,86.18918259999919,86.88917609999771,86.88917609999771,86.87333139999828,None,1,,,,,,,,,subj-1,sess-01,2,16,2,2025-02-04_22h50.54.324,GoNogo,2024.2.4,59.866402138107226,2025-02-04 22h51.00.986718 +0000,
Stimuli/blue_circle_sm.jpg,NoGo,None,55,55,12,,,,,space,0.992172300000675,None,None,1,,,,,,,0,0,0,0,12,55,55,0,86.88917609999771,,,,,,,,,,,,,,,,,,,,,,,,,,,,,,,,,,,,,,,,,,,,,,,,,,86.87553389999812,86.88917609999771,87.08930810000311,87.08930810000311,87.08930810000311,87.3893087999968,87.3893087999968,88.08947469999839,88.08947469999839,88.0737603000016,None,1,,,,,,,,,subj-1,sess-01,2,16,2,2025-02-04_22h50.54.324,GoNogo,2024.2.4,59.866402138107226,2025-02-04 22h51.00.986718 +0000,
Stimuli/blue_circle_sm.jpg,NoGo,None,56,56,10,,,,,space,0.992172300000675,None,None,1,,,,,,,0,0,0,0,10,56,56,2,88.08947469999839,,,,,,,,,,,,,,,,,,,,,,,,,,,,,,,,,,,,,,,,,,,,,,,,,,88.07581310000387,88.08947469999839,88.28947670000343,88.28947670000343,88.28947670000343,88.5894008000032,88.5894008000032,89.28957490000175,89.28957490000175,89.27394150000327,None,1,,,,,,,,,subj-1,sess-01,2,16,2,2025-02-04_22h50.54.324,GoNogo,2024.2.4,59.866402138107226,2025-02-04 22h51.00.986718 +0000,
Stimuli/blue_circle_sm.jpg,NoGo,None,57,57,11,,,,,space,0.992172300000675,None,None,1,,,,,,,0,0,0,0,11,57,57,1,89.28957490000175,,,,,,,,,,,,,,,,,,,,,,,,,,,,,,,,,,,,,,,,,,,,,,,,,,89.27588079999987,89.28957490000175,89.48982940000133,89.48982940000133,89.48982940000133,89.78977999999915,89.78977999999915,90.49004019999848,90.49004019999848,90.47430889999669,None,1,,,,,,,,,subj-1,sess-01,2,16,2,2025-02-04_22h50.54.324,GoNogo,2024.2.4,59.866402138107226,2025-02-04 22h51.00.986718 +0000,
Stimuli/blue_circle_sm.jpg,NoGo,None,58,58,12,,,,,space,0.992172300000675,None,None,1,,,,,,,0,0,0,0,12,58,58,1,90.49004019999848,,,,,,,,,,,,,,,,,,,,,,,,,,,,,,,,,,,,,,,,,,,,,,,,,,90.47620710000047,90.49004019999848,90.68980980000197,90.68980980000197,90.68980980000197,90.9899024999977,90.9899024999977,91.69018890000007,91.69018890000007,91.67467819999729,None,1,,,,,,,,,subj-1,sess-01,2,16,2,2025-02-04_22h50.54.324,GoNogo,2024.2.4,59.866402138107226,2025-02-04 22h51.00.986718 +0000,
Stimuli/blue_circle_sm.jpg,NoGo,None,59,59,12,,,,,space,0.992172300000675,None,None,1,,,,,,,0,0,0,0,12,59,59,3,91.69018890000007,,,,,,,,,,,,,,,,,,,,,,,,,,,,,,,,,,,,,,,,,,,,,,,,,,91.67672969999694,91.69018890000007,91.89021070000308,91.89021070000308,91.89021070000308,92.19027479999932,92.19027479999932,92.89022169999953,92.89022169999953,92.87472990000242,None,1,,,,,,,,,subj-1,sess-01,2,16,2,2025-02-04_22h50.54.324,GoNogo,2024.2.4,59.866402138107226,2025-02-04 22h51.00.986718 +0000,
Stimuli/yellow_circle_sm.jpg,Go,space,60,60,10,,,,,space,0.992172300000675,None,space,1,0.41763060000084806,0.1427713999946718,,,,,0,0,0,0,10,60,60,4,92.89022169999953,,,,,,,,,,,,,,,,,,,,,,,,,,,,,,,,,,,,,,,,,,,,,,,,,,92.87684569999692,92.89022169999953,93.09055449999869,93.09055449999869,93.09055449999869,93.39037729999836,93.39037729999836,94.09063790000073,94.09063790000073,94.0750052000003,space,1,0.41763060000084806,0.1427713999946718,,,,,,,subj-1,sess-01,2,16,2,2025-02-04_22h50.54.324,GoNogo,2024.2.4,59.866402138107226,2025-02-04 22h51.00.986718 +0000,
Stimuli/blue_circle_sm.jpg,NoGo,None,61,61,11,,,,,space,0.992172300000675,None,None,1,,,,,,,0,0,0,0,11,61,61,2,94.09063790000073,,,,,,,,,,,,,,,,,,,,,,,,,,,,,,,,,,,,,,,,,,,,,,,,,,94.07739730000321,94.09063790000073,94.2906570999985,94.2906570999985,94.2906570999985,94.59064570000191,94.59064570000191,95.29082259999996,95.29082259999996,95.27523800000199,None,1,,,,,,,,,subj-1,sess-01,2,16,2,2025-02-04_22h50.54.324,GoNogo,2024.2.4,59.866402138107226,2025-02-04 22h51.00.986718 +0000,
Stimuli/blue_circle_sm.jpg,NoGo,None,62,62,12,,,,,space,0.992172300000675,None,None,1,,,,,,,0,0,0,0,12,62,62,2,95.29082259999996,,,,,,,,,,,,,,,,,,,,,,,,,,,,,,,,,,,,,,,,,,,,,,,,,,95.27745750000031,95.29082259999996,95.4908521000034,95.4908521000034,95.4908521000034,95.79109769999923,95.79109769999923,96.49100619999808,96.49100619999808,96.47511849999864,None,1,,,,,,,,,subj-1,sess-01,2,16,2,2025-02-04_22h50.54.324,GoNogo,2024.2.4,59.866402138107226,2025-02-04 22h51.00.986718 +0000,
Stimuli/blue_circle_sm.jpg,NoGo,None,63,63,13,,,,,space,0.992172300000675,None,None,1,,,,,,,0,0,0,0,13,63,63,3,96.49100619999808,,,,,,,,,,,,,,,,,,,,,,,,,,,,,,,,,,,,,,,,,,,,,,,,,,96.47686280000198,96.49100619999808,96.69126949999918,96.69126949999918,96.69126949999918,96.9912559000004,96.9912559000004,97.69122490000154,97.69122490000154,97.67606879999948,None,1,,,,,,,,,subj-1,sess-01,2,16,2,2025-02-04_22h50.54.324,GoNogo,2024.2.4,59.866402138107226,2025-02-04 22h51.00.986718 +0000,
Stimuli/blue_circle_sm.jpg,NoGo,None,64,64,13,,,,,space,0.992172300000675,None,None,1,,,,,,,0,0,0,0,13,64,64,2,97.69122490000154,,,,,,,,,,,,,,,,,,,,,,,,,,,,,,,,,,,,,,,,,,,,,,,,,,97.67861119999725,97.69122490000154,97.8913728999978,97.8913728999978,97.8913728999978,98.19148549999954,98.19148549999954,98.89163600000029,98.89163600000029,98.87576249999984,None,1,,,,,,,,,subj-1,sess-01,2,16,2,2025-02-04_22h50.54.324,GoNogo,2024.2.4,59.866402138107226,2025-02-04 22h51.00.986718 +0000,
Stimuli/blue_circle_sm.jpg,NoGo,None,65,65,14,,,,,space,0.992172300000675,None,None,1,,,,,,,0,0,0,0,14,65,65,2,98.89163600000029,,,,,,,,,,,,,,,,,,,,,,,,,,,,,,,,,,,,,,,,,,,,,,,,,,98.87770119999914,98.89163600000029,99.09172019999824,99.09172019999824,99.09172019999824,99.39184070000192,99.39184070000192,100.09183479999774,100.09183479999774,100.0760453000039,None,1,,,,,,,,,subj-1,sess-01,2,16,2,2025-02-04_22h50.54.324,GoNogo,2024.2.4,59.866402138107226,2025-02-04 22h51.00.986718 +0000,
Stimuli/blue_circle_sm.jpg,NoGo,None,66,66,13,,,,,space,0.992172300000675,None,None,1,,,,,,,0,0,0,0,13,66,66,1,100.09183479999774,,,,,,,,,,,,,,,,,,,,,,,,,,,,,,,,,,,,,,,,,,,,,,,,,,100.07862849999947,100.09183479999774,100.29186389999813,100.29186389999813,100.29186389999813,100.59205590000056,100.59205590000056,101.29206659999909,101.29206659999909,101.27626869999949,None,1,,,,,,,,,subj-1,sess-01,2,16,2,2025-02-04_22h50.54.324,GoNogo,2024.2.4,59.866402138107226,2025-02-04 22h51.00.986718 +0000,
Stimuli/yellow_circle_sm.jpg,Go,space,67,67,11,,,,,space,0.992172300000675,None,space,1,0.4146247999960906,0.16002020000451012,,,,,0,0,0,0,11,67,67,4,101.29206659999909,,,,,,,,,,,,,,,,,,,,,,,,,,,,,,,,,,,,,,,,,,,,,,,,,,101.27823960000387,101.29206659999909,101.49219460000313,101.49219460000313,101.49219460000313,101.79218199999741,101.79218199999741,102.49245260000316,102.49245260000316,102.47644749999745,space,1,0.4146247999960906,0.16002020000451012,,,,,,,subj-1,sess-01,2,16,2,2025-02-04_22h50.54.324,GoNogo,2024.2.4,59.866402138107226,2025-02-04 22h51.00.986718 +0000,
Stimuli/blue_circle_sm.jpg,NoGo,None,68,68,13,,,,,space,0.992172300000675,None,None,1,,,,,,,0,0,0,0,13,68,68,0,102.49245260000316,,,,,,,,,,,,,,,,,,,,,,,,,,,,,,,,,,,,,,,,,,,,,,,,,,102.47803079999721,102.49245260000316,102.6924457999994,102.6924457999994,102.6924457999994,102.99237269999867,102.99237269999867,103.69251980000263,103.69251980000263,103.67625430000044,None,1,,,,,,,,,subj-1,sess-01,2,16,2,2025-02-04_22h50.54.324,GoNogo,2024.2.4,59.866402138107226,2025-02-04 22h51.00.986718 +0000,
Stimuli/yellow_circle_sm.jpg,Go,space,69,69,12,,,,,space,0.992172300000675,None,space,1,0.4778017999997246,0.16007600000011735,,,,,0,0,0,0,12,69,69,4,103.69251980000263,,,,,,,,,,,,,,,,,,,,,,,,,,,,,,,,,,,,,,,,,,,,,,,,,,103.67732499999693,103.69251980000263,103.89266589999897,103.89266589999897,103.89266589999897,104.19280669999716,104.19280669999716,104.8927870999978,104.8927870999978,104.87746519999928,space,1,0.4778017999997246,0.16007600000011735,,,,,,,subj-1,sess-01,2,16,2,2025-02-04_22h50.54.324,GoNogo,2024.2.4,59.866402138107226,2025-02-04 22h51.00.986718 +0000,
Stimuli/yellow_circle_sm.jpg,Go,space,70,70,13,,,,,space,0.992172300000675,None,space,1,0.478277900001558,0.16014459999860264,,,,,0,0,0,0,13,70,70,4,104.8927870999978,,,,,,,,,,,,,,,,,,,,,,,,,,,,,,,,,,,,,,,,,,,,,,,,,,104.87955350000266,104.8927870999978,105.09263069999724,105.09263069999724,105.09263069999724,105.37633279999864,105.37633279999864,106.09309989999747,106.07648899999913,106.07707389999996,space,1,0.478277900001558,0.16014459999860264,,,,,,,subj-1,sess-01,2,16,2,2025-02-04_22h50.54.324,GoNogo,2024.2.4,59.866402138107226,2025-02-04 22h51.00.986718 +0000,
Stimuli/blue_circle_sm.jpg,NoGo,None,71,71,14,,,,,space,0.992172300000675,None,None,1,,,,,,,0,0,0,0,14,71,71,3,106.09309989999747,,,,,,,,,,,,,,,,,,,,,,,,,,,,,,,,,,,,,,,,,,,,,,,,,,106.07845459999953,106.09309989999747,106.27670750000107,106.27670750000107,106.27670750000107,106.57656200000201,106.57656200000201,107.27666060000047,107.27666060000047,107.26092890000291,None,1,,,,,,,,,subj-1,sess-01,2,16,2,2025-02-04_22h50.54.324,GoNogo,2024.2.4,59.866402138107226,2025-02-04 22h51.00.986718 +0000,
Stimuli/blue_circle_sm.jpg,NoGo,None,72,72,14,,,,,space,0.992172300000675,None,None,1,,,,,,,0,0,0,0,14,72,72,0,107.27666060000047,,,,,,,,,,,,,,,,,,,,,,,,,,,,,,,,,,,,,,,,,,,,,,,,,,107.262831,107.27666060000047,107.47677400000248,107.47677400000248,107.47677400000248,107.77675399999862,107.77675399999862,108.47700690000056,108.47700690000056,108.46117490000324,None,1,,,,,,,,,subj-1,sess-01,2,16,2,2025-02-04_22h50.54.324,GoNogo,2024.2.4,59.866402138107226,2025-02-04 22h51.00.986718 +0000,
Stimuli/blue_circle_sm.jpg,NoGo,None,73,73,15,,,,,space,0.992172300000675,None,None,1,,,,,,,0,0,0,0,15,73,73,2,108.47700690000056,,,,,,,,,,,,,,,,,,,,,,,,,,,,,,,,,,,,,,,,,,,,,,,,,,108.46302209999703,108.47700690000056,108.67689640000026,108.67689640000026,108.67689640000026,108.97717140000168,108.97717140000168,109.67724330000055,109.67724330000055,109.6613578999968,None,1,,,,,,,,,subj-1,sess-01,2,16,2,2025-02-04_22h50.54.324,GoNogo,2024.2.4,59.866402138107226,2025-02-04 22h51.00.986718 +0000,
Stimuli/blue_circle_sm.jpg,NoGo,None,74,74,15,,,,,space,0.992172300000675,None,None,1,,,,,,,0,0,0,0,15,74,74,3,109.67724330000055,,,,,,,,,,,,,,,,,,,,,,,,,,,,,,,,,,,,,,,,,,,,,,,,,,109.6636920000019,109.67724330000055,109.87733909999952,109.87733909999952,109.87733909999952,110.17717350000021,110.17717350000021,110.877476200003,110.877476200003,110.86174420000316,None,1,,,,,,,,,subj-1,sess-01,2,16,2,2025-02-04_22h50.54.324,GoNogo,2024.2.4,59.866402138107226,2025-02-04 22h51.00.986718 +0000,
Stimuli/blue_circle_sm.jpg,NoGo,None,75,75,14,,,,,space,0.992172300000675,None,None,1,,,,,,,0,0,0,0,14,75,75,1,110.877476200003,,,,,,,,,,,,,,,,,,,,,,,,,,,,,,,,,,,,,,,,,,,,,,,,,,110.86396909999894,110.877476200003,111.07738699999754,111.07738699999754,111.07738699999754,111.3775456000003,111.3775456000003,112.07760090000374,112.07760090000374,112.06202409999969,None,1,,,,,,,,,subj-1,sess-01,2,16,2,2025-02-04_22h50.54.324,GoNogo,2024.2.4,59.866402138107226,2025-02-04 22h51.00.986718 +0000,
Stimuli/yellow_circle_sm.jpg,Go,space,76,76,14,,,,,space,0.992172300000675,None,space,1,0.3805329999959213,0.14537760000530398,,,,,0,0,0,0,14,76,76,4,112.07760090000374,,,,,,,,,,,,,,,,,,,,,,,,,,,,,,,,,,,,,,,,,,,,,,,,,,112.06394480000017,112.07760090000374,112.2777774999995,112.2777774999995,112.2777774999995,112.57786469999701,112.57786469999701,113.27800019999995,113.27800019999995,113.26224950000324,space,1,0.3805329999959213,0.14537760000530398,,,,,,,subj-1,sess-01,2,16,2,2025-02-04_22h50.54.324,GoNogo,2024.2.4,59.866402138107226,2025-02-04 22h51.00.986718 +0000,
Stimuli/blue_circle_sm.jpg,NoGo,None,77,77,15,,,,,space,0.992172300000675,None,None,1,,,,,,,0,0,0,0,15,77,77,0,113.27800019999995,,,,,,,,,,,,,,,,,,,,,,,,,,,,,,,,,,,,,,,,,,,,,,,,,,113.2643836999996,113.27800019999995,113.4781215999974,113.4781215999974,113.4781215999974,113.77819689999887,113.77819689999887,114.47826689999783,114.47826689999783,114.46248509999714,None,1,,,,,,,,,subj-1,sess-01,2,16,2,2025-02-04_22h50.54.324,GoNogo,2024.2.4,59.866402138107226,2025-02-04 22h51.00.986718 +0000,
Stimuli/blue_circle_sm.jpg,NoGo,None,78,78,15,,,,,space,0.992172300000675,None,None,1,,,,,,,0,0,0,0,15,78,78,1,114.47826689999783,,,,,,,,,,,,,,,,,,,,,,,,,,,,,,,,,,,,,,,,,,,,,,,,,,114.46474170000147,114.47826689999783,114.67828100000042,114.67828100000042,114.67828100000042,114.97850669999752,114.97850669999752,115.67840660000365,115.67840660000365,115.66280740000366,None,1,,,,,,,,,subj-1,sess-01,2,16,2,2025-02-04_22h50.54.324,GoNogo,2024.2.4,59.866402138107226,2025-02-04 22h51.00.986718 +0000,
Stimuli/yellow_circle_sm.jpg,Go,space,79,79,15,,,,,space,0.992172300000675,None,space,1,0.49201259999972535,0.14416170000185957,,,,,0,0,0,0,15,79,79,4,115.67840660000365,,,,,,,,,,,,,,,,,,,,,,,,,,,,,,,,,,,,,,,,,,,,,,,,,,115.6652197000003,115.67840660000365,115.87869399999909,115.87869399999909,115.87869399999909,116.17863270000089,116.17863270000089,116.87846780000109,116.87846780000109,116.86279060000379,space,1,0.49201259999972535,0.14416170000185957,,,,,,,subj-1,sess-01,2,16,2,2025-02-04_22h50.54.324,GoNogo,2024.2.4,59.866402138107226,2025-02-04 22h51.00.986718 +0000,
,,,0,0,0,,,,,space,0.992172300000675,None,,,,,,,,,0,0,0,0,,,,,,,,,,,,,,,,,,,,,,,,,,,,,,,,,,,,,,,,,,,,,,,,,,,,,,,,,,,,,,,,,,,,,116.86863979999907,116.87846780000109,116.87846780000109,118.87917490000109,118.87917490000109,118.86352079999779,subj-1,sess-01,2,16,2,2025-02-04_22h50.54.324,GoNogo,2024.2.4,59.866402138107226,2025-02-04 22h51.00.986718 +0000,
Stimuli/blue_circle_sm.jpg,NoGo,None,0,0,0,,,,,space,1.027807300000859,None,None,1,,,,,,,1,0,1,0,0,0,0,1,119.92921870000282,,,,,,,,,,,,,,,,,,,,,,,,,,,,,,,,,,,,,,,,,118.86616940000386,118.87917490000109,118.87917490000109,118.87917490000109,118.87917490000109,119.91335339999932,space,1.027807300000859,None,119.92040470000211,119.92921870000282,120.12930860000051,120.12930860000051,120.12930860000051,120.41284579999774,120.41284579999774,121.12944669999706,121.11295670000254,121.11385390000214,None,1,,,,,,,,,subj-1,sess-01,2,16,2,2025-02-04_22h50.54.324,GoNogo,2024.2.4,59.866402138107226,2025-02-04 22h51.00.986718 +0000,
Stimuli/blue_circle_sm.jpg,NoGo,None,1,1,0,,,,,space,1.027807300000859,None,None,1,,,,,,,1,0,1,0,0,1,1,0,121.12944669999706,,,,,,,,,,,,,,,,,,,,,,,,,,,,,,,,,,,,,,,,,,,,,,,,,,121.11586840000382,121.12944669999706,121.31297739999718,121.31297739999718,121.31297739999718,121.61299609999696,121.61299609999696,122.31316289999813,122.31316289999813,122.29737520000344,None,1,,,,,,,,,subj-1,sess-01,2,16,2,2025-02-04_22h50.54.324,GoNogo,2024.2.4,59.866402138107226,2025-02-04 22h51.00.986718 +0000,
Stimuli/blue_circle_sm.jpg,NoGo,None,2,2,0,,,,,,,,,,,,,,,,,,,,0,2,2,2,122.31316289999813,,,,,,,,,,,,,,,,,,,,,,,,,,,,,,,,,,,,,,,,,,,,,,,,,,122.29906019999908,122.31316289999813,122.51325389999693,122.51325389999693,122.51325389999693,122.81315120000363,122.81315120000363,,,,,,,,,,,,,,,,,,,,,,,,
